Intensity,Time
1,400
1,380
1,394
1,416
1,400
1,440
1,429
1,388
1,419
1,391
2,470
2,417
2,457
2,471
2,495
2,460
2,483
2,463
2,446
2,470
3,474
3,476
3,495
3,455
3,496
3,475
3,479
3,498
3,453
3,503
4,501
4,497
4,495
4,494
4,504
4,469
4,430
4,434
4,470
4,474
5,431
5,407
5,430
5,387
5,418
5,422
5,433
5,419
5,455
5,415
